Time	Distance_mm	Temp_C	AccX_g	AccY_g	AccZ_g	MagX	MagY	MagZ	Ground_T	Ground_H
1.5	0.625	0.641	-0.0151	-0.0559	-0.0195	0.0	0.0	0.0	-28.5537	0.005
2.5	0.625	0.641	-0.0151	-0.0559	-0.0195	0.0	0.0	0.0	-28.5537	0.005
3.5	0.625	0.641	-0.0151	-0.0559	-0.0195	-33.45	-247.2	-57.15	-28.5537	0.005
4.5	0.625	0.641	-0.0151	-0.0559	-0.0195	-44.55	-456.0	-86.25	-28.5537	0.005
5.5	0.625	0.641	-0.0151	-0.0559	-0.0195	-50.1	-500.25	-100.95	-28.5537	0.005
6.5	0.625	0.641	-0.0151	-0.0559	-0.0195	-49.8	-509.25	-111.0	-28.5537	0.005
7.5	0.625	0.641	-0.0151	-0.0559	-0.0195	-41.25	-516.6	-109.05	-28.5537	0.005
8.5	0.625	0.641	-0.0151	-0.0559	-0.0195	-37.95	-517.2	-111.45	-28.5537	0.005
9.5	0.625	0.641	-0.0151	-0.0559	-0.0195	-35.7	-1209.6	-3072.0	11.2201	34.325
10.5	0.625	0.641	-0.0151	-0.0559	-0.0195	-36.0	-517.35	-114.3	11.2201	34.325
11.5	0.625	0.641	-0.0151	-0.0559	-0.0195	-33.6	-515.7	-116.7	11.2201	34.325
12.5	0.625	0.641	-0.0151	-0.0559	-0.0195	-33.45	-517.2	-118.05	11.2201	34.325
13.5	0.625	0.641	-0.0151	-0.0559	-0.0195	-33.15	-517.35	-116.55	11.2201	34.325
14.5	0.625	0.641	-0.0151	-0.0559	-0.0195	-33.6	-516.75	-117.15	11.2201	34.325
15.5	0.625	0.641	-0.0151	-0.0559	-0.0195	-33.75	-517.35	-117.6	11.2201	34.325
16.5	0.625	0.641	-0.0151	-0.0559	-0.0195	-34.2	-516.45	-117.9	11.2201	34.325
17.5	0.625	0.641	-0.0151	-0.0559	-0.0195	-34.5	-515.7	-119.4	11.2201	34.325
18.5	0.625	0.641	-0.0151	-0.0559	-0.0195	-34.05	-516.75	-119.1	11.2201	34.325
19.5	0.625	0.641	-0.0151	-0.0559	-0.0195	-34.35	-515.7	-122.1	11.2201	34.325
20.5	0.625	0.641	-0.0151	-0.0559	-0.0195	-35.4	-514.5	-122.25	11.2201	34.325
21.5	0.625	0.641	-0.0151	-0.0559	-0.0195	-33.45	-514.5	-123.15	11.2201	34.325
22.5	0.625	0.641	-0.0151	-0.0559	-0.0195	-29.4	-515.4	-123.45	11.2201	34.325
23.5	0.625	0.641	-0.0151	-0.0559	-0.0195	-30.3	-515.7	-124.35	11.2201	34.325
24.5	0.625	0.641	-0.0151	-0.0559	-0.0195	-34.5	-517.5	-118.35	11.2201	34.325
25.5	0.625	0.641	-0.0151	-0.0559	-0.0195	-35.85	-517.05	-117.45	11.2201	34.325
26.5	0.625	0.641	-0.0151	-0.0559	-0.0195	-39.3	-514.95	-123.0	11.2201	34.325
27.5	0.625	0.641	-0.0151	-0.0559	-0.0195	-39.45	-517.35	-122.1	11.2201	34.325
28.5	0.625	0.641	-0.0151	-0.0559	-0.0195	-35.1	-517.05	-123.75	11.2201	34.325
29.5	0.625	0.641	-0.0151	-0.0559	-0.0195	-33.45	-513.9	-129.3	11.2201	34.325
30.5	0.625	0.641	-0.0151	-0.0559	-0.0195	-9.0	-471.75	-142.2	11.2201	34.325
31.5	0.625	0.641	-0.0151	-0.0559	-0.0195	219.75	-126.45	-134.4	11.2201	34.325
32.5	0.625	0.641	-0.0151	-0.0559	-0.0195	109.65	257.7	-69.15	11.2201	34.325
33.5	0.625	0.641	-0.0151	-0.0559	-0.0195	37.95	428.1	-25.2	11.2201	34.325
34.5	0.625	0.641	-0.0151	-0.0559	-0.0195	7.05	461.1	-27.15	11.2201	34.325
35.5	0.625	0.641	-0.0151	-0.0559	-0.0195	-3.9	465.15	-30.15	11.2201	34.325
36.5	0.625	0.641	-0.0151	-0.0559	-0.0195	-5.1	469.8	-29.85	11.2201	34.325
37.5	0.625	0.641	-0.0151	-0.0559	-0.0195	-9.3	475.5	-28.8	11.2201	34.325
38.5	0.625	0.641	-0.0151	-0.0559	-0.0195	-11.25	478.5	-41.85	11.2201	34.325
39.5	0.625	0.641	-0.0151	-0.0559	-0.0195	-13.5	477.75	-76.2	11.2201	34.325
40.5	0.625	0.641	-0.0151	-0.0559	-0.0195	-22.2	477.15	-82.05	11.2201	34.325
41.5	0.625	0.641	-0.0151	-0.0559	-0.0195	-25.95	475.35	-85.5	11.2201	34.325
42.5	0.625	0.641	-0.0151	-0.0559	-0.0195	-28.65	474.45	-89.4	11.2201	34.325
43.5	0.625	0.641	-0.0151	-0.0559	-0.0195	-29.25	468.45	-86.7	11.2201	34.325
44.5	0.625	0.641	-0.0151	-0.0559	-0.0195	-31.8	455.25	-93.0	11.2201	34.325
45.5	0.625	0.641	-0.0151	-0.0559	-0.0195	-31.5	451.05	-88.65	11.2201	34.325
46.5	0.625	0.641	-0.0151	-0.0559	-0.0195	-28.65	451.5	-88.5	11.2201	34.325
47.5	0.625	0.641	-0.0151	-0.0559	-0.0195	-28.2	451.65	-86.85	11.2201	34.325
48.5	0.625	0.641	-0.0151	-0.0559	-0.0195	-27.45	450.75	-78.9	11.2201	34.325
49.5	0.625	0.641	-0.0151	-0.0559	-0.0195	-27.9	452.25	-74.85	11.2201	34.325
50.5	0.625	0.641	-0.0151	-0.0559	-0.0195	-34.65	450.45	-83.85	11.2201	34.325
51.5	0.625	0.641	-0.0151	-0.0559	-0.0195	37.65	435.6	-92.1	11.2201	34.325
52.5	0.625	0.641	-0.0151	-0.0559	-0.0195	376.8	127.05	-70.2	11.2201	34.325
53.5	0.625	0.641	-0.0151	-0.0559	-0.0195	482.25	19.95	-71.25	11.2201	34.325
54.5	0.625	0.641	-0.0151	-0.0559	-0.0195	501.75	16.5	-77.7	11.2201	34.325
55.5	0.625	0.641	-0.0151	-0.0559	-0.0195	504.9	49.2	-68.1	11.2201	34.325
56.5	0.625	0.641	-0.0151	-0.0559	-0.0195	508.8	43.05	-65.7	11.2201	34.325
57.5	0.625	0.641	-0.0151	-0.0559	-0.0195	512.55	13.8	-64.65	11.2201	34.325
58.5	0.625	0.641	-0.0151	-0.0559	-0.0195	513.75	6.0	-63.15	11.2201	34.325
59.5	0.625	0.641	-0.0151	-0.0559	-0.0195	512.7	3.3	-69.6	11.2201	34.325
0.0	0.625	0.641	-0.0151	-0.0559	-0.0195	0.0	0.0	0.0	11.2201	34.325
60.5	0.625	0.641	-0.0151	-0.0559	-0.0195	510.3	-7.65	-71.55	11.2201	34.325
61.5	0.625	0.641	-0.0151	-0.0559	-0.0195	508.05	-10.5	-71.55	11.2201	34.325
62.5	0.625	0.641	-0.0151	-0.0559	-0.0195	507.6	-7.95	-72.45	11.2201	34.325
63.5	0.625	0.641	-0.0151	-0.0559	-0.0195	504.45	-14.7	-78.3	11.2201	34.325
64.5	0.625	0.641	-0.0151	-0.0559	-0.0195	502.35	-9.15	-77.4	11.2201	34.325
65.5	0.625	0.641	-0.0151	-0.0559	-0.0195	505.95	-13.2	-75.3	11.2201	34.325
66.5	0.625	0.641	-0.0151	-0.0559	-0.0195	505.5	-13.95	-76.05	11.2201	34.325
67.5	0.625	0.641	-0.0151	-0.0559	-0.0195	504.45	-12.3	-76.5	11.2201	34.325
68.5	0.625	0.641	-0.0151	-0.0559	-0.0195	456.9	-147.75	-43.05	11.2201	34.325
69.5	0.625	0.641	-0.0151	-0.0559	-0.0195	112.65	-382.95	-130.8	11.2201	34.325
70.5	0.625	0.641	-0.0151	-0.0559	-0.0195	-382.05	-204.6	-91.65	11.2201	34.325
71.5	0.625	0.641	-0.0151	-0.0559	-0.0195	-518.1	-100.2	-60.0	11.2201	34.325
72.5	0.625	0.641	-0.0151	-0.0559	-0.0195	-536.55	-71.85	-52.5	11.2201	34.325
73.5	0.625	0.641	-0.0151	-0.0559	-0.0195	-542.55	-61.5	-53.7	11.2201	34.325
74.5	0.625	0.641	-0.0151	-0.0559	-0.0195	-543.75	-56.1	-55.35	11.2201	34.325
75.5	0.625	0.641	-0.0151	-0.0559	-0.0195	-545.25	-54.3	-56.55	11.2201	34.325
76.5	0.625	0.641	-0.0151	-0.0559	-0.0195	-546.3	-51.0	-56.25	11.2201	34.325
77.5	0.625	0.641	-0.0151	-0.0559	-0.0195	-546.3	-50.7	-59.1	11.2201	34.325
78.5	0.625	0.641	-0.0151	-0.0559	-0.0195	-547.2	-51.9	-61.5	11.2201	34.325
79.5	0.625	0.641	-0.0151	-0.0559	-0.0195	-547.65	-50.85	-63.0	11.2201	34.325
80.5	0.625	0.641	-0.0151	-0.0559	-0.0195	-547.65	-50.7	-62.55	11.2201	34.325
81.5	0.625	0.641	-0.0151	-0.0559	-0.0195	-546.15	-51.9	-65.1	11.2201	34.325
82.5	0.625	0.641	-0.0151	-0.0559	-0.0195	-545.55	-52.95	-65.85	11.2201	34.325
83.5	0.625	0.641	-0.0151	-0.0559	-0.0195	-545.1	-51.45	-65.4	11.2201	34.325
84.5	0.625	0.641	-0.0151	-0.0559	-0.0195	-544.65	-52.65	-62.55	11.2201	34.325
85.5	0.625	0.641	-0.0151	-0.0559	-0.0195	-546.15	-51.75	-62.7	11.2201	34.325
86.5	0.625	0.641	-0.0151	-0.0559	-0.0195	-540.9	-42.15	-61.2	11.2201	34.325
87.5	0.625	0.641	-0.0151	-0.0559	-0.0195	-516.3	-91.95	16.35	11.2201	34.325
88.5	0.625	0.641	-0.0151	-0.0559	-0.0195	-538.65	-81.45	-16.05	11.2201	34.325
89.5	0.625	0.641	-0.0151	-0.0559	-0.0195	-551.4	-65.85	-16.35	11.2201	34.325
90.5	0.625	0.641	-0.0151	-0.0559	-0.0195	-557.4	-71.25	-17.4	11.2201	34.325
91.5	0.625	0.641	-0.0151	-0.0559	-0.0195	-557.85	-81.0	-15.9	11.2201	34.325
92.5	0.625	0.641	-0.0151	-0.0559	-0.0195	-553.95	-88.2	-16.35	11.2201	34.325
93.5	0.625	0.641	-0.0151	-0.0559	-0.0195	-556.2	-88.2	-14.7	11.2201	34.325
94.5	0.625	0.641	-0.0151	-0.0559	-0.0195	-557.4	-86.1	-13.2	11.2201	34.325
95.5	0.625	0.641	-0.0151	-0.0559	-0.0195	-557.25	-87.0	-12.75	11.2201	34.325
96.5	0.625	0.641	-0.0151	-0.0559	-0.0195	-559.2	-86.55	-13.8	11.2201	34.325
97.5	0.625	0.641	-0.0151	-0.0559	-0.0195	-557.7	-84.75	-16.35	11.2201	34.325
98.5	0.625	0.641	-0.0151	-0.0559	-0.0195	-556.95	-83.85	-19.2	11.2201	34.325
99.5	0.625	0.641	-0.0151	-0.0559	-0.0195	-555.15	-84.9	-24.75	11.2201	34.325
100.5	0.625	0.641	-0.0151	-0.0559	-0.0195	-549.15	-84.3	-30.75	11.2201	34.325
101.5	0.625	0.641	-0.0151	-0.0559	-0.0195	-549.0	-85.05	-33.3	11.2201	34.325
102.5	0.625	0.641	-0.0151	-0.0559	-0.0195	-549.0	-83.55	-32.25	11.2201	34.325
103.5	0.625	0.641	-0.0151	-0.0559	-0.0195	-548.85	-81.45	-30.0	11.2201	34.325
104.5	0.625	0.641	-0.0151	-0.0559	-0.0195	-545.7	-79.95	-30.45	11.2201	34.325
105.5	0.625	0.641	-0.0151	-0.0559	-0.0195	-545.1	-76.35	-30.15	11.2201	34.325
106.5	0.625	0.641	-0.0151	-0.0559	-0.0195	-545.25	-76.5	-29.7	11.2201	34.325
107.5	0.625	0.641	-0.0151	-0.0559	-0.0195	-542.7	-75.6	-21.45	11.2201	34.325
108.5	0.625	0.641	-0.0151	-0.0559	-0.0195	-544.8	-70.5	-17.4	11.2201	34.325
109.5	0.625	0.641	-0.0151	-0.0559	-0.0195	-547.95	-65.7	-19.2	11.2201	34.325
110.5	0.625	0.641	-0.0151	-0.0559	-0.0195	-546.15	-64.5	-20.4	11.2201	34.325
111.5	0.625	0.641	-0.0151	-0.0559	-0.0195	-547.8	-62.25	-20.1	11.2201	34.325
112.5	0.625	0.641	-0.0151	-0.0559	-0.0195	-375.0	-268.2	-79.5	11.2201	34.325
113.5	0.625	0.641	-0.0151	-0.0559	-0.0195	-285.6	-43.8	-51.0	11.2201	34.325
114.5	0.625	0.641	-0.0151	-0.0559	-0.0195	-201.45	269.25	87.15	11.2201	34.325
115.5	0.625	0.641	-0.0151	-0.0559	-0.0195	-186.3	355.35	114.3	11.2201	34.325
116.5	0.625	0.641	-0.0151	-0.0559	-0.0195	-181.05	381.75	115.8	11.2201	34.325
117.5	0.625	0.641	-0.0151	-0.0559	-0.0195	-180.6	393.75	112.95	11.2201	34.325
118.5	0.625	0.641	-0.0151	-0.0559	-0.0195	-186.15	394.35	109.05	11.2201	34.325
0.0	0.625	0.641	-0.0151	-0.0559	-0.0195	0.0	0.0	0.0	11.2201	34.325
119.5	0.625	0.641	-0.0151	-0.0559	-0.0195	-238.95	367.65	68.1	11.2201	34.325
120.5	0.625	0.641	-0.0151	-0.0559	-0.0195	-217.05	82.95	-47.7	11.2201	34.325
121.5	0.625	0.641	-0.0151	-0.0559	-0.0195	-128.55	28.8	-96.0	11.2201	34.325
122.5	0.625	0.641	-0.0151	-0.0559	-0.0195	-16.65	8.1	-1209.6	11.2201	34.325
123.5	0.625	0.641	-0.0151	-0.0559	-0.0195	0.0	0.0	-4914.0	11.2201	34.325
124.5	0.625	0.641	-0.0151	-0.0559	-0.0195	88.2	126.15	-147.75	11.2201	34.325
125.5	0.625	0.641	-0.0151	-0.0559	-0.0195	74.4	-89.1	0.3	11.2201	34.325
126.5	0.625	0.641	-0.0151	-0.0559	-0.0195	-433.8	-70.8	-36.0	11.2201	34.325
127.5	0.625	0.641	-0.0151	-0.0559	-0.0195	-600.3	-2437.05	-2457.6	11.2201	34.325
128.5	0.625	0.641	-0.0151	-0.0559	-0.0195	-607.2	-4915.2	0.0	11.2201	34.325
129.5	0.625	0.641	-0.0151	-0.0559	-0.0195	-606.9	-2361.75	-4896.0	11.2201	34.325
130.5	0.625	0.641	-0.0151	-0.0559	-0.0195	-1224.0	-57.6	-4896.0	11.2201	34.325
131.5	0.625	0.641	-0.0151	-0.0559	-0.0195	-603.9	-4915.2	0.0	11.2201	34.325
132.5	0.625	0.641	-0.0151	-0.0559	-0.0195	-4608.0	-2438.1	10.8	11.2201	34.325
133.5	0.625	0.641	-0.0151	-0.0559	-0.0195	-4915.2	1075.2	0.0	11.2201	34.325
134.5	0.625	0.641	-0.0151	-0.0559	-0.0195	-4896.0	19.2	0.0	11.2201	34.325
53.58	0.625	0.641	-0.0151	-0.0559	-0.0195	0.0	0.0	0.0	11.2201	34.325
136.5	0.625	0.641	-0.0151	-0.0559	-0.0195	-696.0	-4896.0	0.0	11.2201	34.325
137.5	0.625	0.641	-0.0151	-0.0559	-0.0195	-57.6	-2422.2	0.0	11.2201	34.325
123.14	0.625	0.641	-0.0151	-0.0559	-0.0195	2.4	0.0	0.0	11.2201	34.325
139.5	0.625	0.641	-0.0151	-0.0559	-0.0195	-2505.0	-595.05	0.0	11.2201	34.325
140.5	0.625	0.641	-0.0151	-0.0559	-0.0195	-45.3	-4896.0	0.0	11.2201	34.325
141.5	0.625	0.641	-0.0151	-0.0559	-0.0195	-734.55	307.2	0.0	11.2201	34.325
142.5	0.625	0.641	-0.0151	-0.0559	-0.0195	2457.6	0.0	0.0	11.2201	34.325
143.5	0.625	0.641	-0.0151	-0.0559	-0.0195	19.2	0.0	0.0	11.2201	34.325
62.58	0.625	0.641	-0.0151	-0.0559	-0.0195	0.0	19.2	0.0	11.2201	34.325
1.28	0.625	0.641	-0.0151	-0.0559	-0.0195	0.0	0.0	0.0	11.2201	34.325
143.94	0.625	0.641	-0.0151	-0.0559	-0.0195	0.0	0.0	0.0	11.2201	34.325
1.42	0.625	0.641	-0.0151	-0.0559	-0.0195	0.0	0.0	0.0	11.2201	34.325
0.02	0.625	0.641	-0.0151	-0.0559	-0.0195	0.0	0.0	0.0	11.2201	34.325
144.38	0.625	0.641	-0.0151	-0.0559	-0.0195	0.0	0.0	0.0	11.2201	34.325
1.28	0.625	0.641	-0.0151	-0.0559	-0.0195	0.0	0.0	0.0	11.2201	34.325
0.32	0.625	0.641	-0.0151	-0.0559	-0.0195	0.0	0.0	0.0	11.2201	34.325
152.5	0.625	0.641	-0.0151	-0.0559	-0.0195	0.0	0.0	0.0	11.2201	34.325
0.0	0.625	0.641	-0.0151	-0.0559	-0.0195	0.0	0.0	0.0	11.2201	34.325
0.0	0.625	0.641	-0.0151	-0.0559	-0.0195	0.0	0.0	0.0	11.2201	34.325
0.0	0.625	0.641	-0.0151	-0.0559	-0.0195	0.0	0.0	0.0	11.2201	34.325
0.0	0.625	0.641	-0.0151	-0.0559	-0.0195	0.0	0.0	0.0	11.2201	34.325
1.34	0.625	0.641	-0.0151	-0.0559	-0.0195	0.0	0.0	0.0	11.2201	34.325
1.28	0.625	0.641	-0.0151	-0.0559	-0.0195	0.0	0.0	0.0	11.2201	34.325
0.78	0.625	0.641	-0.0151	-0.0559	-0.0195	0.0	0.0	0.0	11.2201	34.325
1.78	0.625	0.641	-0.0151	-0.0559	-0.0195	0.0	0.0	0.0	11.2201	34.325
0.0	0.625	0.641	-0.0151	-0.0559	-0.0195	0.0	0.0	0.0	11.2201	34.325
1.22	0.625	0.641	-0.0151	-0.0559	-0.0195	0.0	0.0	0.0	11.2201	34.325
0.0	0.625	0.641	-0.0151	-0.0559	-0.0195	0.0	0.0	0.0	11.2201	34.325
0.0	0.625	0.641	-0.0151	-0.0559	-0.0195	0.0	0.0	0.0	11.2201	34.325
0.0	0.625	0.641	-0.0151	-0.0559	-0.0195	0.0	0.0	0.0	11.2201	34.325
0.0	0.625	0.641	-0.0151	-0.0559	-0.0195	0.0	0.0	0.0	11.2201	34.325
0.0	0.625	0.641	-0.0151	-0.0559	-0.0195	0.0	0.0	0.0	11.2201	34.325
1.28	0.625	0.641	-0.0151	-0.0559	-0.0195	0.0	0.0	0.0	11.2201	34.325
